Folder: SpechtNeuralNetworks/Implementación/Bases de datos

Note: Implementación/Bases de datos/Enlaces bases.txt
Forest Fires: https://archive.ics.uci.edu/dataset/162/forest+fires

New York City Taxi Trip Duration: https://www.kaggle.com/competitions/nyc-taxi-trip-duration/data

File: Concrete_Data.csv
Cement (component 1)(kg in a m^3 mixture);Blast Furnace Slag (component 2)(kg in a m^3 mixture);Fly Ash (component 3)(kg in a m^3 mixture);Water  (component 4)(kg in a m^3 mixture);Superplasticizer (component 5)(kg in a m^3 mixture);Coarse Aggregate  (component 6)(kg in a m^3 mixture);Fine Aggregate (component 7)(kg in a m^3 mixture);Age (day);Concrete compressive strength(MPa. megapascals)
540;0;0;162;2.5;1040;676;28;80
266;114;0;228;0;932;670;90;47
198.6;132.4;0;192;0;978.4;825.5;90;38.1
380;0;0;228;0;932;670;90;52.9
427.5;47.5;0;228;0;932;594;180;41.8
380;0;0;228;0;932;670;270;53.3
304;76;0;228;0;932;670;365;55.3
237.5;237.5;0;228;0;932;594;270;38.4
342;38;0;228;0;932;670;90;50.5
427.5;47.5;0;228;0;932;594;7;35.1
332.5;142.5;0;228;0;932;594;180;39.8
198.6;132.4;0;192;0;978.4;825.5;7;14.6
304;76;0;228;0;932;670;270;54.4
342;38;0;228;0;932;670;270;55.1
374;189.2;0;170.1;10.1;926.1;756.7;3;34.4
475;118.8;0;181.1;8.9;852.1;781.5;3;37.8
425;106.3;0;153.5;16.5;852.1;887.1;3;33.4
379.5;151.2;0;153.9;15.9;1134.3;605;3;28.6
389.9;189;0;145.9;22;944.7;755.8;3;40.6
425;106.3;0;153.5;16.5;852.1;887.1;7;49.2
425;106.3;0;153.5;16.5;852.1;887.1;7;49.2
401.8;94.7;0;147.4;11.4;946.8;852.1;7;54.1
286.3;200.9;0;144.7;11.2;1004.6;803.7;7;38
337.9;189;0;174.9;9.5;944.7;755.8;7;35.1
375;93.8;0;126.6;23.4;852.1;992.6;28;56.7
531.3;0;0;141.8;28.2;852.1;893.7;28;56.4
323.7;282.8;0;183.8;10.3;942.7;659.9;28;74.7
439;177;0;186;11.1;884.9;707.9;28;66
313.3;262.2;0;175.5;8.6;1046.9;611.8;56;64.9
469;117.2;0;137.8;32.2;852.1;840.5;56;69.3
318.8;212.5;0;155.7;14.3;852.1;880.4;56;66.1
362.6;189;0;164.9;11.6;944.7;755.8;56;77.3
362.6;189;0;164.9;11.6;944.7;755.8;56;77.3
425;106.3;0;151.4;18.6;936;803.7;91;66.7
388.6;97.1;0;157.9;12.1;852.1;925.7;91;57.6
362.6;189;0;164.9;11.6;944.7;755.8;91;79.3
439;177;0;186;11.1;884.9;707.9;91;73.3
222.36;0;96.67;189.29;4.46;967.08;870.32;14;24.4
233.81;0;94.58;197.89;4.57;947.04;852.16;14;22.1
194.68;0;100.52;165.62;7.48;1006.4;905.9;14;25
190.68;0;125.4;162.14;7.77;1090;804.01;14;21.1
212.07;0;121.62;180.31;5.69;1057.6;779.32;14;20.9
229.97;0;118.31;195.47;4.63;1029.4;758.59;14;20.1
190.34;0;125.18;161.85;9.88;1088.1;802.59;14;22.7
166.09;0;163.27;176.46;4.49;1058.6;780.09;14;25.5
167.95;42.08;163.83;121.75;5.72;1058.7;780.11;14;17.8
213.72;98.05;24.51;181.71;6.86;1065.8;785.38;14;30.4
213.76;98.06;24.52;181.74;6.65;1066;785.52;14;17.8
229.68;0;118.16;195.23;6.13;1028.1;757.63;14;22.3
238.05;0;94.11;186.66;7;949.91;847.01;14;25.7
250;0;95.69;187.42;5.53;956.86;861.17;14;24.9
212.52;0;100.37;159.32;8.71;1007.8;903.59;14;26.3
212.57;0;100.39;159.35;10.37;1003.8;903.79;14;25.4
212;0;124.78;159;7.84;1085.4;799.54;14;31.4
231.75;0;121.62;173.96;6.72;1056.4;778.45;14;26.8
251.37;0;118.27;188.45;5.75;1028.4;757.73;14;29.9
251.37;0;118.27;188.45;6.35;1028.4;757.73;14;24.4
181.38;0;167.01;169.59;7.56;1055.6;777.8;14;21.6
182.04;45.21;121.97;170.21;8.19;1059.4;780.65;14;21.5
168.88;42.22;124.25;158.33;10.83;1080.8;796.15;14;23.5
290.35;0;96.18;168.08;9.41;961.18;865;14;34.7
277.05;0;97.39;160.6;11.83;973.9;875.61;14;41.9
295.71;0;95.64;171.54;8.87;955.14;859.2;14;35.2
251.81;0;99.94;146.14;12.35;1006;899.76;14;33.4
249.1;0;98.75;158.11;12.8;987.76;889.01;14;28.7
252.31;0;98.75;146.25;14.17;987.76;889.01;14;42.3
246.83;0;125.08;143.3;11.99;1086.8;800.89;14;42.2
275.07;0;121.35;159.48;9.9;1053.6;777.5;14;38.8
297.16;0;117.54;174.8;9.52;1022.8;753.45;14;37
213.74;0;174.74;154.79;10.16;1053.5;776.35;14;33.7
213.5;0;174.24;154.61;11.66;1052.3;775.48;14;33.7
277.19;97.82;24.46;160.7;11.19;1061.7;782.46;14;47.7
218.23;54.64;123.78;140.75;11.91;1075.7;792.67;14;36
214.9;53.8;121.89;155.63;9.61;1014.3;780.58;14;38.6
218.85;0;124.13;158.49;11.33;1078.7;794.91;14;26
376;0;0;214.6;0;1003.5;762.36;14;25.6
475;0;59;142;1.9;1098;641;28;57.2
520;0;0;170;5.2;855;855;28;60.3
450.1;50;0;200;3;1124.4;613.2;28;39.4
200;200;0;190;0;1145;660;28;49.2
250;180;95;159;9.45;860;800;28;67.9
500;0;0;151;9;1033;655;28;69.8
172.38;13.61;172.37;156.76;4.14;1006.3;856.4;3;21.3
250;0;95.69;191.84;5.33;948.9;857.2;3;8.5
165;128.5;132.1;175.06;8.08;1005.8;746.6;14;33.1
167;75.4;167;164.03;7.91;1007.3;770.1;14;32.9
194.68;0;100.52;170.17;7.48;998;901.8;14;24.3
167.35;129.9;128.62;175.46;7.79;1006.3;746.6;28;41.2
190.34;0;125.18;166.61;9.88;1079;798.9;28;24.8
165;0.02;143.57;163.81;0;1005.6;900.9;56;36.6
173.54;50.05;173.53;164.77;6.47;1006.2;793.5;56;53.8
213.5;0;174.24;159.21;11.66;1043.6;771.9;56;51.3
178.03;129.8;118.6;179.94;3.57;1007.3;746.8;100;50
173.81;93.37;159.9;172.34;9.73;1007.2;746.6;100;50.9
251.37;0;118.27;192.94;5.75;1043.6;754.3;100;40.1
446;24;79;162;11.61;967;712;3;35.4
446;24;79;162;11.64;967;712;7;39.3
387;20;94;157;14.32;938;845;28;50.2
387;20;94;157;11.61;938;845;3;34.8
387;20;94;157;13.93;938;845;56;48
491;26;123;201;3.93;822;699;28;57.9
491;26;123;201;3.93;822;699;7;37.9
424;22;132;178;8.48;822;750;7;39
202;11;141;206;1.72;942;801;28;22
284;15;141;179;5.46;842;801;3;13.4
359;19;141;154;10.91;942;801;3;25.1
359;19;141;154;10.91;942;801;56;66.8
393;0;0;192;0;940.6;785.6;90;48.8
480;0;0;192;0;936.2;712.2;3;24.4
255;0;0;192;0;889.8;945;28;18.7
393;0;0;192;0;940.6;785.6;7;27.7
181.9;272.8;0;185.7;0;1012.4;714.3;28;27.9
220.8;147.2;0;185.7;0;1055;744.3;28;25.7
295.8;0;0;185.7;0;1091.4;769.3;7;14.8
295.8;0;0;185.7;0;1091.4;769.3;28;25.2
238.1;0;0;185.7;0;1118.8;789.3;28;17.6
290.2;193.5;0;185.7;0;998.2;704.3;7;21.9
290.2;193.5;0;185.7;0;998.2;704.3;28;33
238.1;0;0;185.7;0;1118.8;789.3;7;10.3
186.2;124.1;0;185.7;0;1083.4;764.3;28;17.6
339;0;0;197;0;968;781;14;27
236;0;0;194;0;968;885;3;6.5
236;0;0;193;0;968;885;365;25.1
277;0;0;191;0;968;856;180;32.3
254;0;0;198;0;968;863;365;29.8
307;0;0;193;0;968;812;90;32.9
225;0;0;181;0;1113;833;28;17.3
300;0;0;184;0;1075;795;7;15.6
400;0;0;187;0;1025;745;7;30.1
203.5;305.3;0;203.5;0;963.4;630;7;19.5
122.6;183.9;0;203.5;0;958.2;800.1;90;33.2
166.8;250.2;0;203.5;0;975.6;692.6;28;33.9
116;173;0;192;0;909.8;891.9;90;31
173;116;0;192;0;946.8;856.8;7;11.4
305.3;203.5;0;203.5;0;965.4;631;28;43.4
183.9;122.6;0;203.5;0;959.2;800;90;32.5
102;153;0;192;0;887;942;28;17.3
133;200;0;192;0;927.4;839.2;7;13.7
288;192;0;192;0;932;717.8;7;23.5
116;173;0;192;0;909.8;891.9;28;22.3
133;200;0;192;0;927.4;839.2;3;6.9
122.6;183.9;0;203.5;0;958.2;800.1;3;3.3
250.2;166.8;0;203.5;0;977.6;694.1;28;37
141.3;212;0;203.5;0;971.8;748.5;90;39.7
203.5;305.3;0;203.5;0;963.4;630;90;51.9
310;0;0;192;0;1012;830;120;38.7
331;0;0;192;0;1025;821;120;39.4
349;0;0;192;0;1056;809;120;40.9
297;0;0;186;0;1040;734;7;31
281;0;0;185;0;1104;774;28;22.4
500;0;0;200;0;1125;613;28;44.1
540;0;0;173;0;1125;613;180;71.6
350;0;0;203;0;974;775;56;30
385;0;0;186;0;966;763;7;23.2
349;0;0;192;0;1047;806;3;15
281;0;0;186;0;1104;774;28;22.4
238;0;0;185;0;1118;789;28;17.5
331;0;0;192;0;978;825;7;16.3
349;0;0;192;0;1047;806;90;39.5
525;0;0;189;0;1125;613;180;61.9
252;0;0;185;0;1111;784;7;13.7
393;0;0;192;0;940;758;90;48.8
310;0;0;192;0;970;850;7;15
525;0;0;189;0;1125;613;3;33.8
525;0;0;189;0;1125;613;270;67.1
397;0;0;185;0;1040;734;28;39.1
162;190;148;179;19;838;741;28;33.8
144;0;175;158;18;943;844;28;15.4
310;143;0;168;10;914;804;28;45.3
321;164;0;190;5;870;774;28;57.2
156;243;0;180;11;1022;698;28;37.4
326;166;0;174;9;882;790;28;61.2
314;0;113;170;10;925;783;28;38.5
265;111;86;195;6;833;790;28;41.5
149;139;109;193;6;892;780;28;23.7
155;183;0;193;9;1047;697;28;18.3
152;0;112;184;8;992;816;28;12.2
153;145;113;178;8;867;824;28;26.2
158;0;195;220;11;898;713;28;8.5
260;101;78;171;10;936;763;28;49.8
150;237;0;174;12;1069;675;28;37.4
135;0;166;180;10;961;805;28;13.3
144;136;106;178;7;941;774;28;26.1
155;184;143;194;9;880;699;28;29
136;162;126;172;10;923;764;28;29.1
164;163;128;197;8;961;641;28;27.2
159;209;161;201;7;848;669;28;30.9
156;178;187;221;7;854;614;28;29.4
296;0;106.7;221.4;10.5;819.2;778.4;28;31.4
139.9;132.6;103.3;200.3;7.4;916;753.4;28;36.4
326.5;0;137.9;199;10.8;801.1;792.5;28;38.6
272.6;0;89.6;198.7;10.6;931.3;762.2;28;32.2
284;119.7;0;168.3;7.2;970.4;794.2;28;40.9
330.5;169.6;0;194.9;8.1;811;802.3;28;56.6
314;145.3;113.2;178.9;8;869.1;690.2;28;46.2
277;116.8;91;190.6;7;946.5;665.6;28;43.6
147.8;175.1;0;171.2;2.2;1000;828.5;28;26.9
255.3;98.8;77;188.6;6.5;919;749.3;28;33.8
151.8;178.1;138.7;167.5;18.3;944;694.6;28;36.3
158.6;148.9;116;175.1;15;953.3;719.7;28;27.7
141.9;166.6;129.7;173.5;10.9;882.6;785.3;28;44.6
252.1;97.1;75.6;193.8;8.3;835.5;821.4;28;33.4
317.9;0;126.5;209.7;5.7;860.5;736.6;28;40.1
322.5;148.6;0;185.8;8.5;951;709.5;28;52.4
288.4;121;0;177.4;7;907.9;829.5;28;42.1
276.4;116;90.3;179.6;8.9;870.1;768.3;28;44.3
260.9;100.5;78.3;200.6;8.6;864.5;761.5;28;32.4